Folder: FatigueCrackProjeckt

Note: README.md
# FatigueCrackProjeckt
Code, bug fixes and data for fatigue crack projeckt

Spesimen20.m is current matlab file for spesimen 20 in triton.

File: Example_XRD_data.txt
30.0000 6.3545 1.0000
30.4004 4.3594 1.0000
30.8008 6.2267 1.0000
31.2012 4.0180 1.0000
31.6016 5.2337 1.0000
32.0020 3.3243 1.0000
32.4024 1.9839 1.0000
32.8028 4.2748 1.0000
33.2032 5.9115 1.0000
33.6036 7.0053 1.0000
34.0040 3.9465 1.0000
34.4044 6.3240 1.0000
34.8048 3.9278 1.0000
35.2052 5.9460 1.0000
35.6056 9.0116 1.0000
36.0060 6.9362 1.0000
36.4064 5.2573 1.0000
36.8068 6.3081 1.0000
37.2072 4.0347 1.0000
37.6076 8.9044 1.0000
38.0080 15.6720 1.0000
38.4084 1244.91 1.0000
38.8088 11.3053 1.0000
39.2092 6.0888 1.0000
39.6096 5.3488 1.0000
40.0100 3.3572 1.0000
40.4104 4.0109 1.0000
40.8108 4.9344 1.0000
41.2112 5.6477 1.0000
41.6116 6.3157 1.0000
42.0120 5.2859 1.0000
42.4124 3.9741 1.0000
42.8128 4.9892 1.0000
43.2132 2.2984 1.0000
43.6136 3.2694 1.0000
44.0140 4.9798 1.0000
44.4144 36.3644 1.0000
44.8148 167.9445 1.0000
45.2152 6.0098 1.0000
45.6156 5.9841 1.0000
46.0160 7.9454 1.0000
46.4164 3.9511 1.0000
46.8168 3.9896 1.0000
47.2172 1.9353 1.0000
47.6176 3.9543 1.0000
48.0180 6.3980 1.0000
48.4184 4.9437 1.0000
48.8188 4.4080 1.0000
49.2192 7.0162 1.0000
49.6196 5.9162 1.0000
50.0200 6.0566 1.0000
50.4204 3.0616 1.0000
50.8208 5.5751 1.0000
51.2212 7.0807 1.0000
51.6216 6.9740 1.0000
52.0220 4.8710 1.0000
52.4224 5.2841 1.0000
52.8228 4.0228 1.0000
53.2232 5.0162 1.0000
53.6236 4.9895 1.0000
54.0240 6.2163 1.0000
54.4244 5.9979 1.0000
54.8248 5.9659 1.0000
55.2252 5.3156 1.0000
55.6256 6.0220 1.0000
56.0260 4.3415 1.0000
56.4264 3.3190 1.0000
56.8268 1.2920 1.0000
57.2272 3.2710 1.0000
57.6276 2.9110 1.0000
58.0280 6.0116 1.0000
58.4284 3.9662 1.0000
58.8288 8.2779 1.0000
59.2292 5.9555 1.0000
59.6296 3.9593 1.0000
60.0300 3.3031 1.0000
60.4304 2.9913 1.0000
60.8308 5.9915 1.0000
61.2312 3.9603 1.0000
61.6316 11.2377 1.0000
62.0320 6.2194 1.0000
62.4324 7.1137 1.0000
62.8328 6.0205 1.0000
63.2332 1.9870 1.0000
63.6336 0.0000 1.0000
64.0340 3.9712 1.0000
64.4344 9.9354 1.0000
64.8348 60.7313 1.0000
65.2352 73.3420 1.0000
65.6356 9.3352 1.0000
66.0360 5.2637 1.0000
66.4364 3.2927 1.0000
66.8368 4.3320 1.0000
67.2372 3.6754 1.0000
67.6376 1.9743 1.0000
68.0380 2.9916 1.0000
68.4384 5.0438 1.0000
68.8388 4.9701 1.0000
69.2392 3.9903 1.0000
69.6396 4.3702 1.0000
70.0400 5.0909 1.0000
70.4404 8.2433 1.0000
70.8408 3.9834 1.0000
71.2412 7.3152 1.0000
71.6416 3.9577 1.0000
72.0420 8.0973 1.0000
72.4424 7.3826 1.0000
72.8428 4.9206 1.0000
73.2432 5.9236 1.0000
73.6436 4.6403 1.0000
74.0440 2.9614 1.0000
74.4444 6.3252 1.0000
74.8448 4.3249 1.0000
75.2452 8.2409 1.0000
75.6456 3.9659 1.0000
76.0460 6.7387 1.0000
76.4464 5.0481 1.0000
76.8468 7.0695 1.0000
77.2472 5.2663 1.0000
77.6476 8.3400 1.0000
78.0480 201.5940 1.0000
78.4484 31.8348 1.0000
78.8488 5.0517 1.0000
79.2492 7.6314 1.0000
79.6496 1.9914 1.0000
80.0500 4.8999 1.0000
80.4504 1.9799 1.0000
80.8508 7.6477 1.0000
81.2512 4.5315 1.0000
81.6516 4.9786 1.0000
82.0520 7.0606 1.0000
82.4524 99.7181 1.0000
82.8528 7.5786 1.0000
83.2532 4.2045 1.0000
83.6536 9.5468 1.0000
84.0540 8.0671 1.0000
84.4544 5.9893 1.0000
84.8548 3.0299 1.0000
85.2552 11.1774 1.0000
85.6556 1.0088 1.0000
86.0560 2.9885 1.0000
86.4564 1.9989 1.0000
86.8568 6.7423 1.0000
87.2572 7.2448 1.0000
87.6576 2.3913 1.0000
88.0580 4.0064 1.0000
88.4584 3.2663 1.0000
88.8588 1.3295 1.0000
89.2592 6.0278 1.0000
89.6596 0.3374 1.0000
90.0600 2.9990 1.0000
90.4604 0.0000 1.0000
90.8608 6.2578 1.0000
91.2612 1.9635 1.0000
91.6616 1.9891 1.0000
92.0620 7.9641 1.0000
92.4624 1.0284 1.0000
92.8628 4.3073 1.0000
93.2632 4.9133 1.0000
93.6636 0.9769 1.0000
94.0640 2.9401 1.0000
94.4644 4.3231 1.0000
94.8648 3.6235 1.0000
95.2652 8.0245 1.0000
95.6656 6.9235 1.0000
96.0660 2.9412 1.0000
96.4664 2.3503 1.0000
96.8668 1.0121 1.0000
97.2672 5.0629 1.0000
97.6676 1.9771 1.0000
98.0680 5.9698 1.0000
98.4684 6.2971 1.0000
98.8688 19.1233 1.0000
99.2692 12.8932 1.0000
99.6696 1.9931 1.0000
100.0700 1.9763 1.0000
100.4704 4.9798 1.0000
100.8708 2.0221 1.0000
101.2712 2.3555 1.0000
101.6716 5.6500 1.0000
102.0720 7.2832 1.0000
102.4724 4.9833 1.0000
102.8728 5.2151 1.0000
103.2732 5.0153 1.0000
103.6736 4.0351 1.0000
104.0740 6.3628 1.0000
104.4744 3.0245 1.0000
104.8748 7.3047 1.0000
105.2752 5.3622 1.0000
105.6756 13.0416 1.0000
106.0760 4.9682 1.0000
106.4764 3.3918 1.0000
106.8768 1.9778 1.0000
107.2772 5.2706 1.0000
107.6776 3.6064 1.0000
108.0780 2.2375 1.0000
108.4784 5.0095 1.0000
108.8788 6.9913 1.0000
109.2792 2.2840 1.0000
109.6796 3.3640 1.0000
110.0800 11.3188 1.0000
110.4804 6.3172 1.0000
110.8808 6.2978 1.0000
111.2812 5.3630 1.0000
111.6816 27.4444 1.0000
112.0820 93.2654 1.0000
112.4824 13.9247 1.0000
112.8828 6.9316 1.0000
113.2832 12.3762 1.0000
113.6836 3.9803 1.0000
114.0840 7.9913 1.0000
114.4844 3.9749 1.0000
114.8848 9.9010 1.0000
115.2852 4.8832 1.0000
115.6856 5.3038 1.0000
116.0860 12.2158 1.0000
116.4864 138.9202 1.0000
116.8868 11.7598 1.0000
117.2872 7.8984 1.0000
117.6876 9.8243 1.0000
118.0880 6.9631 1.0000
118.4884 5.9668 1.0000
118.8888 10.2960 1.0000
119.2892 3.9999 1.0000
119.6896 4.6767 1.0000
120.0900 6.3123 1.0000
120.4904 9.2840 1.0000
120.8908 7.6543 1.0000
121.2912 3.3136 1.0000
121.6916 4.9832 1.0000
122.0920 3.9742 1.0000
122.4924 9.3355 1.0000
122.8928 7.0340 1.0000
123.2932 7.0022 1.0000
123.6936 5.9106 1.0000
124.0940 4.0186 1.0000
124.4944 6.2647 1.0000
124.8948 4.2832 1.0000
125.2952 4.9217 1.0000
125.6956 7.9922 1.0000
126.0960 6.9987 1.0000
126.4964 2.9986 1.0000
126.8968 3.3076 1.0000
127.2972 6.4524 1.0000
127.6976 3.0460 1.0000
128.0980 4.9577 1.0000
128.4984 4.3148 1.0000
128.8988 2.9430 1.0000
129.2992 3.3339 1.0000
129.6996 4.2626 1.0000
130.1000 2.0347 1.0000
130.5004 2.9875 1.0000
130.9008 4.0104 1.0000
131.3012 5.0835 1.0000
131.7016 2.3735 1.0000
132.1020 6.2906 1.0000
132.5024 4.9386 1.0000
132.9028 6.3359 1.0000
133.3032 2.0245 1.0000
133.7036 6.2938 1.0000
134.1040 7.5860 1.0000
134.5044 9.3415 1.0000
134.9048 8.9921 1.0000
135.3052 6.2271 1.0000
135.7056 2.2982 1.0000
136.1060 11.0173 1.0000
136.5064 6.0001 1.0000
136.9068 19.7868 1.0000
137.3072 88.9743 1.0000
137.7076 38.2942 1.0000
138.1080 13.0572 1.0000
138.5084 5.3484 1.0000
138.9088 5.3403 1.0000
139.3092 5.6026 1.0000
139.7096 10.9367 1.0000
140.1100 4.9842 1.0000
140.5104 5.0045 1.0000
140.9108 6.0166 1.0000
141.3112 3.9452 1.0000
141.7116 4.2477 1.0000
142.1120 9.9764 1.0000
142.5124 4.3017 1.0000
142.9128 6.6623 1.0000
143.3132 5.9752 1.0000
143.7136 8.9404 1.0000
144.1140 5.9201 1.0000
144.5144 14.3468 1.0000
144.9148 8.2733 1.0000
145.3152 7.2868 1.0000
145.7156 2.3350 1.0000
146.1160 6.6388 1.0000
146.5164 5.3214 1.0000
146.9168 9.2917 1.0000
147.3172 6.0671 1.0000
147.7176 8.3000 1.0000
148.1180 6.3141 1.0000
148.5184 4.3745 1.0000
148.9188 8.2482 1.0000
149.3192 5.2974 1.0000
149.7196 4.6916 1.0000
149.9952 6.3685 1.0000